Folder: xrd_analysis

Note: README.md
# xrd_analysis
Github repo for my own XRD analysis functions

File: example_1-tbig-ggg-bi2te3.asc
*TYPE		=  Raw
*CLASS		=  ASCII CLASS
*SAMPLE		=
*COMMENT	=
*FNAME		=
*DATE		=  25-Sep-22 13:21

*GROUP_COUNT	=  1
*GONIO		=  Standard, 300
*ATTACHMENT	=
*ASC		=  0, 0, 0.000000, 0.000000
*I_MONOCHRO	=  IPS_adaptor, 0.000000
*FILTER		=  None
*SLIT_NAME	=  0, IncidentSlitBox
*SLIT_NAME	=  1, ReceivingSlitBox1
*SLIT_NAME	=  2, ReceivingSlitBox2
*COUNTER	=  HyPix3000(H), 0
*POS_FORMAT	=  0
*SCAN_AXIS	=  2theta/theta
*MEAS_MODE	=  Continuous Scanning
*TARGET		=  29
*XRAY_CHAR	=  K-ALPHA
*WAVE_LENGTH1	=  1.54059
*WAVE_LENGTH2	=  1.54441
*THICKNESS	=  0, 0.000000
*MU		=  0, 0.000000
*SCAN_MODE	=  2theta/theta
*SPEED_DIM	=  sec./step
*XUNIT		=  deg.
*YUNIT		=  counts
*SCALE_MODE	=  1
*REP_COUNT	=  0
*SE_COUNT	=  0
*STD_MATERIAL	=  Unknown, Unknown, 0.000000, 0.000000, 0.000000, 0.000000, 0.000000, 0.000000
*LATT_CONS	=  0, Unknown, Unknown, 0.000000, 0.000000, 0.000000, 0.000000, 0.000000, 0.000000
*SEC_COUNT	=  1
*TSPEC_SIZE	=  0
*EXTRA_SIZE	=  0
*MEMO		=

*BEGIN
*GROUP		=  0
*START		=  3
*STOP		=  90
*STEP		=  0.02
*OFFSET		=  0.000000
*SPEED		=  1.2
*SLIT_SPEC	=  0, 0.050mm, 0.000000, 0.000000
*SLIT_SPEC	=  1, 0.250mm, 0.000000, 0.000000
*SLIT_SPEC	=  2, 0.300mm, 0.000000, 0.000000
*KV		=  45
*MA		=  200
*LOW		=  0.000000
*HIGH		=  0.000000
*CTEMPER	=  0, 0.000000
*CTEMPER	=  1, 0.000000
*CTEMPER	=  2, 0.000000
*PAREX		=  0, 0.000000
*PAREX		=  1, 0.000000
*PAREX		=  2, 0.000000
*PAREX		=  3, 0.000000
*PAREX		=  4, 0.000000
*PAREX		=  5, 0.000000
*PAREX		=  6, 0.000000
*PAREX		=  7, 0.000000
*PAREX		=  8, 0.000000
*PAREX		=  9, 0.000000
*PAREX		=  10, 0.000000
*PAREX		=  11, 0.000000
*PAREX		=  12, 0.000000
*PAREX		=  13, 0.000000
*PAREX		=  14, 0.000000
*PAREX		=  15, 0.000000
*FULL_SCALE	=  0.000000
*INDEX		=  0, 0, 0
*COUNT		=  4351
24428.3, 23516.5, 22567.2, 21876.4
14699, 14360.8, 13816.4, 13480.7
10074.9, 9562.54, 9503.04, 9139.31
6892.64, 6746.07, 6495.51, 6309.66
4620.14, 4470.96, 4460.68, 4375.78
3342.63, 3064.2, 3058.71, 2901.18
2257.99, 2192.19, 2119.41, 2067.8
1618.9, 1584.03, 1551.34, 1606.44
1231.05, 1262.95, 1224.93, 1169.55
942.37, 1023.07, 964.35, 962.327
772.811, 720.572, 673.564, 731.692
607.011, 571.035, 560.077, 564.146
473.772, 453.014, 423.831, 443.733
377.818, 343.682, 362.518, 359.652
321.194, 311.546, 289.035, 278.667
224.546, 226.062, 258.322, 266.316
222.012, 223.816, 199.378, 248.956
218.975, 193.574, 208.182, 209.692
201.639, 224.887, 187.029, 203.571
146.843, 161.213, 162.055, 166.628
151.411, 155.476, 150.062, 151.844
143.321, 158.816, 147.592, 139.844
142.161, 125.515, 121.343, 118.551
131.799, 118.559, 115.809, 128.819
131.095, 119.704, 126.868, 115.208
126.415, 129.001, 118.382, 106.7
147.846, 110.675, 137.591, 117.229
137.884, 111.746, 126.987, 125.42
114.64, 128.536, 106.666, 124.036
114.678, 110.692, 138.444, 140.857
111.677, 137.92, 122.794, 118.81
108.903, 97.7829, 117.682, 106.25
121.529, 138.44, 107.814, 108.817
122.664, 108.672, 141.076, 129.609
104.598, 115.684, 125.542, 123.494
118.337, 118.599, 123.839, 118.672
116.792, 131.816, 111.638, 123.136
122.082, 127.816, 107.248, 98.3391
114.588, 117.775, 115.609, 101.687
112.774, 115.764, 119.028, 126.425
92.4764, 121.057, 121.392, 113.504
118.816, 116.679, 114.746, 121.916
114.638, 134.848, 129.33, 119.768
132.949, 120.305, 109.388, 94.3023
153.676, 155.996, 133.762, 111.063
190.962, 214.355, 200.028, 217.954
180.885, 142.887, 145.026, 139.268
114.491, 134.504, 140.841, 108.95
106.909, 119.61, 141.86, 125.425
106.058, 117.165, 118.773, 120.415
116.38, 125.037, 114.476, 111.59
113.902, 128.887, 113.343, 121.501
112.811, 117.969, 134.998, 112.762
107.51, 107.15, 91.9409, 114.847
126.86, 123.671, 108.621, 112.774
102.321, 107.895, 130.6, 126.638
123.487, 111.788, 129.425, 98.3425
105.792, 118.916, 100.434, 119.891
111.431, 102.848, 117.194, 123.165
106.59, 119.481, 119.743, 105.659
114.505, 99.7169, 121.451, 129.409
124.543, 128.308, 133.387, 94.3936
109.391, 130.593, 104.905, 111.719
128.666, 119.928, 121.106, 115.669
113.001, 111.921, 111.631, 126.048
120.189, 101.862, 130.038, 94.8869
132.907, 101.274, 110.414, 136.619
139.907, 154.776, 161.19, 159.98
451.42, 579.045, 631.864, 729.715
277.881, 234.093, 240.977, 193.927
211.421, 194.8, 174.893, 183.436
128.03, 162.7, 163.818, 181.909
231.105, 211.895, 187.405, 191.833
153.184, 149.367, 135.799, 109.036
119.245, 99.8814, 113.717, 122.785
127.911, 118.297, 120.904, 128.557
143.675, 147.933, 147.434, 140.592
322.754, 306.898, 270.917, 254.292
128.727, 135.492, 105.66, 119.966
150.064, 131.925, 137.621, 150.411
119.442, 109.122, 116.596, 123.69
117.802, 99.3371, 92.6088, 135.68
119.64, 111.726, 114.587, 129.018
112.985, 117.763, 94.3873, 96.5448
125.508, 110.625, 119.951, 93.8979
130.076, 119.318, 87.4693, 112.959
130.776, 122.233, 103.812, 132.652
110.45, 105.53, 116.724, 103.657
117.8, 110.309, 103.603, 100.03
95.6213, 104.822, 94.7969, 121.846
122.259, 108.679, 103.505, 106.569
120.723, 93.709, 101.954, 125.889
111.176, 104.91, 106.741, 95.9515
119.449, 107.267, 105.854, 95.1559
104.44, 99.9202, 113.456, 106.236
114.676, 96.7976, 91.7823, 91.7841
105.732, 116.577, 84.4457, 94.4382
100.114, 90.6849, 122.742, 125.814
108.839, 102.858, 95.9371, 114.306
99.4953, 99.8707, 102.788, 106.041
105.822, 92.7865, 99.8672, 109.732
103.943, 94.6622, 106.488, 125.087
109.018, 124.643, 113.976, 100.795
120.919, 105.513, 106.815, 105.814
111.935, 101.686, 106.675, 104.627
100.957, 118.953, 100.826, 87.7971
117.515, 100.643, 101.647, 93.9655
103.773, 116.835, 113.602, 99.7003
115.608, 130.118, 92.8561, 103.266
100.3, 116.595, 105.398, 110.76
119.816, 134.89, 114.973, 104.798
109.846, 100.778, 107.358, 90.0258
107.874, 131.464, 108.11, 113.027
116.689, 93.6577, 117.52, 119.955
124.435, 119.856, 94.8476, 86.162
106.622, 112.788, 107.394, 117.927
96.0816, 109.781, 96.6649, 103.275
98.2585, 116.719, 117.29, 101.318
102.912, 116.651, 114.914, 116.211
129.034, 104.365, 137.52, 114.777
116.108, 117.216, 126.266, 95.6477
119.701, 126.49, 128.694, 132.438
169.17, 121.936, 114.677, 100.476
118.579, 117.484, 127.669, 122.762
115.637, 112.95, 129.978, 114.636
124.677, 123.527, 128.689, 122.505
149.008, 128.224, 116.071, 109.79
118.706, 113.116, 118.211, 126.695
127.225, 133.52, 123.99, 114.991
192.381, 201.171, 220.46, 216.099
218.659, 223, 230.623, 224.469
172.406, 156.95, 155.465, 155.475
151.003, 146.103, 176.306, 160.196
354.507, 373.475, 302.429, 377.258
16060, 8136.99, 3995.87, 2171.97
514.521, 486.157, 463.016, 444.096
412.439, 425.801, 427.309, 423.914
435.728, 451.906, 478.814, 464.496
470.388, 480.514, 514.012, 459.861
542.572, 582.138, 575.586, 589.576
625.854, 627.26, 635.081, 639.968
789.404, 808.601, 812.661, 831.944
898.148, 939.365, 955.646, 975.388
2182.02, 3104.36, 3616.26, 3399.11
2567.79, 2995.71, 3381.6, 4115.9
41773.1, 45617.3, 49640.8, 53116.7
36870.9, 32460.9, 28832.7, 24631.2
10631.5, 10892.1, 11238.9, 11389.9
12863.9, 13555.2, 14034.8, 15094.3
28703.5, 31631.1, 35958.1, 41529.8
701592, 1634601.5, 6376544.5, 11774902
211941, 163989, 133848, 111694
35166.9, 33676.5, 32660.8, 32028.9
22347.1, 22448.2, 21836.4, 21641
16504.7, 16025.4, 15870.6, 15361
11110.2, 10686.6, 10400.1, 10199.3
6978.05, 6721.19, 6432.47, 6178.88
3996.92, 3848.24, 3584, 3432.16
2261.28, 2215.2, 2163.39, 2105.47
1543.08, 1503.86, 1518.18, 1471.04
1168.99, 1087.54, 1075.96, 1051.51
866.776, 839.824, 839.224, 870.772
683.905, 686.926, 679.412, 602.091
550.4, 550.739, 551.802, 586.224
451.297, 450.942, 439.215, 460.22
406.539, 425.083, 393.509, 403.416
349.023, 355.236, 344.904, 336.954
329.734, 306.862, 293.414, 280.614
314.926, 283.588, 304.681, 293.31
294.496, 266.999, 276.264, 297.177
259.319, 258.713, 248.373, 237.873
238.844, 259.971, 232.231, 239.408
250.614, 224.065, 223.413, 240.569
255.158, 244.539, 250.795, 235.042
224.682, 220.231, 218.753, 234.269
224.025, 219.121, 205.556, 199.466
214.564, 189.689, 184.439, 184.564
191.431, 229.207, 192.263, 171.528
187.991, 184.356, 228.167, 207.451
195.714, 173.036, 185.696, 187.759
164.01, 177.603, 165.466, 201.807
161.023, 167.229, 173.592, 173.559
178.975, 154.08, 159.651, 154.061
156.6, 196.916, 163.712, 176.124
168.988, 158.682, 162.772, 159.756
155.916, 147.788, 163.546, 168.384
182.693, 150.474, 180.422, 176.635
178.587, 142.592, 154.997, 157.653
155.553, 139.878, 137.151, 165.872
138.622, 153.39, 152.202, 135.384
151.716, 139.811, 145.409, 151.823
146.432, 132.523, 151.271, 158.623
117.142, 133.405, 146.845, 145.026
130.136, 115.601, 153.758, 144.383
128.647, 100.889, 122.33, 145.264
132.618, 120.561, 122.666, 120.905
153.784, 126.19, 137.75, 126.563
117.593, 111.413, 129.771, 127.121
138.95, 118.483, 135.424, 127.66
94.6614, 110.604, 115.291, 97.7426
152.212, 110.118, 137.669, 113.017
131.95, 106.278, 112.829, 124.701
111.593, 123.058, 114.972, 107.142
108.198, 110.372, 104.236, 118.98
144.431, 122.906, 113.586, 101.731
125.735, 116.532, 114.245, 102.367
105.816, 127.767, 100.105, 120.511
108.528, 114.552, 107.61, 114.008
106.018, 105.884, 114.572, 95.3535
107.592, 108.602, 100.834, 91.9891
107.232, 118.23, 96.6366, 118.871
101.532, 106.481, 88.899, 120.873
110.586, 94.2012, 110.292, 97.7242
111.054, 98.9106, 96.6289, 116.613
118.718, 110.927, 114.624, 102.537
108.733, 99.1307, 110.464, 106.473
95.3529, 116.482, 87.14, 111.842
115.681, 109.521, 108.538, 121.385
123.401, 112.27, 96.4409, 114.997
103.712, 108.505, 98.6894, 121.648
108.834, 96.5662, 107.986, 132.419
108.835, 104.671, 79.4426, 98.7911
94.5155, 110.717, 96.3288, 115.187
123.219, 112.287, 108.689, 102.384
116.788, 108.606, 115.077, 108.543
113.856, 107.106, 94.0144, 104.684
96.1363, 103.001, 120.715, 104.814
112.971, 88.9967, 95.7615, 107.708
102.954, 115.787, 97.9472, 112.695
98.994, 107.423, 116.342, 101.58
106.237, 94.814, 101.746, 100.731
130.68, 100.881, 112.82, 89.1548
85.6724, 110.399, 95.8659, 98.4502
110.229, 88.7086, 109.584, 92.7002
82.561, 116.515, 96.975, 111.802
105.839, 90.2436, 104.904, 104.829
108.635, 95.9206, 111.021, 101.04
96.1559, 97.2956, 107.983, 89.4274
122.545, 105.497, 108.466, 109.8
89.8772, 92.3937, 116.938, 80.8223
136.015, 123.684, 107.926, 107.934
83.6575, 116.871, 101.396, 118.735
139.846, 151.398, 161.974, 247.781
283.086, 486.822, 786.446, 845.895
136.346, 113.914, 126.858, 103.971
114.544, 98.0832, 108.498, 95.8139
97.3133, 119.435, 107.137, 109.717
113.814, 108.966, 128.659, 112.707
123.146, 112.767, 103.583, 106.239
112.663, 109.735, 122.962, 104.506
104.001, 114.916, 101.701, 99.642
116.671, 105.294, 125.736, 108.167
99.6003, 91.575, 134.598, 103.996
93.8686, 108.218, 109.84, 116.963
103.839, 88.6786, 97.9315, 122.822
109.512, 120.78, 117.827, 119.611
112.3, 103.921, 100.914, 114.497
99.5735, 101.859, 95.6838, 106.4
88.6321, 121.146, 87.607, 116.431
117.563, 97.8134, 107.579, 104.683
96.9932, 97.6491, 110.973, 112.889
105.996, 120.52, 112.277, 98.7791
118.501, 113.396, 103.873, 113.032
119.158, 98.461, 109.548, 113.797
119.342, 98.5056, 97.007, 81.8273
112.032, 112.357, 94.7778, 112.592
118.141, 108.876, 114.295, 103.614
104.666, 106.419, 104.955, 98.7184
108.313, 117.846, 116.555, 115.22
100.174, 118.397, 104.552, 122.794
100.925, 107.817, 102.274, 114.749
116.318, 98.1289, 109.441, 110.677
96.7021, 88.6546, 102.034
*END

*EOF